Model,TBS2074
Firmware Version,v1.25.03

Point Format,Y
Horizontal Units,S
Horizontal Scale,0.004
Sample Interval,3.2e-05
Filter Frequency,1e+08
Record Length,2000
Gating,0.0% to 100.0%
Probe Attenuation,10
Vertical Units,V
Vertical Offset,0
Vertical Scale,1
Label,
TIME,CH1
-3.200e-02,1.68594
-3.197e-02,1.25371
-3.194e-02,1.25371
-3.190e-02,0.85332
-3.187e-02,0.85332
-3.184e-02,0.808984
-3.181e-02,0.808984
-3.178e-02,1.41406
-3.174e-02,1.41406
-3.171e-02,2.00039
-3.168e-02,2.00039
-3.165e-02,1.9498
-3.162e-02,1.9498
-3.158e-02,1.23203
-3.155e-02,1.23203
-3.152e-02,0.107617
-3.149e-02,0.107617
-3.146e-02,-1.31191
-3.142e-02,-1.31191
-3.139e-02,-2.11035
-3.136e-02,-2.11035
-3.133e-02,-1.86152
-3.130e-02,-1.86152
-3.126e-02,-1.1752
-3.123e-02,-1.1752
-3.120e-02,-0.716211
-3.117e-02,-0.716211
-3.114e-02,-0.879492
-3.110e-02,-0.879492
-3.107e-02,-1.88848
-3.104e-02,-1.88848
-3.101e-02,-2.58223
-3.098e-02,-2.58223
-3.094e-02,-2.22441
-3.091e-02,-2.22441
-3.088e-02,-1.10762
-3.085e-02,-1.10762
-3.082e-02,-0.0701172
-3.078e-02,-0.0701172
-3.075e-02,0.958008
-3.072e-02,0.958008
-3.069e-02,1.32695
-3.066e-02,1.32695
-3.062e-02,1.16523
-3.059e-02,1.16523
-3.056e-02,1.13457
-3.053e-02,1.13457
-3.050e-02,1.39199
-3.046e-02,1.39199
-3.043e-02,1.72148
-3.040e-02,1.72148
-3.037e-02,1.75488
-3.034e-02,1.75488
-3.030e-02,1.3959
-3.027e-02,1.3959
-3.024e-02,0.977734
-3.021e-02,0.977734
-3.018e-02,0.849805
-3.014e-02,0.849805
-3.011e-02,1.31035
-3.008e-02,1.31035
-3.005e-02,1.92227
-3.002e-02,1.92227
-2.998e-02,2.00566
-2.995e-02,2.00566
-2.992e-02,1.40566
-2.989e-02,1.40566
-2.986e-02,0.407031
-2.982e-02,0.407031
-2.979e-02,-0.945508
-2.976e-02,-0.945508
-2.973e-02,-1.98262
-2.970e-02,-1.98262
-2.966e-02,-1.97695
-2.963e-02,-1.97695
-2.960e-02,-1.3791
-2.957e-02,-1.3791
-2.954e-02,-0.892383
-2.950e-02,-0.892383
-2.947e-02,-0.975586
-2.944e-02,-0.975586
-2.941e-02,-1.83984
-2.938e-02,-1.83984
-2.934e-02,-2.53984
-2.931e-02,-2.53984
-2.928e-02,-2.27148
-2.925e-02,-2.27148
-2.922e-02,-1.22461
-2.918e-02,-1.22461
-2.915e-02,-0.188672
-2.912e-02,-0.188672
-2.909e-02,0.794336
-2.906e-02,0.794336
-2.902e-02,1.28125
-2.899e-02,1.28125
-2.896e-02,1.225
-2.893e-02,1.225
-2.890e-02,1.20801
-2.886e-02,1.20801
-2.883e-02,1.39199
-2.880e-02,1.39199
-2.877e-02,1.62598
-2.874e-02,1.62598
-2.870e-02,1.66172
-2.867e-02,1.66172
-2.864e-02,1.41484
-2.861e-02,1.41484
-2.858e-02,1.11836
-2.854e-02,1.11836
-2.851e-02,1.1252
-2.848e-02,1.1252
-2.845e-02,1.48848
-2.842e-02,1.48848
-2.838e-02,1.84844
-2.835e-02,1.84844
-2.832e-02,1.77969
-2.829e-02,1.77969
-2.826e-02,1.27676
-2.822e-02,1.27676
-2.819e-02,0.662109
-2.816e-02,0.662109
-2.813e-02,0.0625
-2.810e-02,0.0625
-2.806e-02,-0.225586
-2.803e-02,-0.225586
-2.800e-02,-0.413281
-2.797e-02,-0.413281
-2.794e-02,-0.843164
-2.790e-02,-0.843164
-2.787e-02,-1.68496
-2.784e-02,-1.68496
-2.781e-02,-2.23926
-2.778e-02,-2.23926
-2.774e-02,-2.09395
-2.771e-02,-2.09395
-2.768e-02,-1.38164
-2.765e-02,-1.38164
-2.762e-02,-0.734375
-2.758e-02,-0.734375
-2.755e-02,-0.451758
-2.752e-02,-0.451758
-2.749e-02,-1.09824
-2.746e-02,-1.09824
-2.742e-02,-2.23457
-2.739e-02,-2.23457
-2.736e-02,-2.55078
-2.733e-02,-2.55078
-2.730e-02,-1.7873
-2.726e-02,-1.7873
-2.723e-02,-0.658203
-2.720e-02,-0.658203
-2.717e-02,0.372656
-2.714e-02,0.372656
-2.710e-02,1.2123
-2.707e-02,1.2123
-2.704e-02,1.28184
-2.701e-02,1.28184
-2.698e-02,1.1334
-2.694e-02,1.1334
-2.691e-02,1.20684
-2.688e-02,1.20684
-2.685e-02,1.53203
-2.682e-02,1.53203
-2.678e-02,1.76777
-2.675e-02,1.76777
-2.672e-02,1.63027
-2.669e-02,1.63027
-2.666e-02,1.21074
-2.662e-02,1.21074
-2.659e-02,0.894141
-2.656e-02,0.894141
-2.653e-02,1.03516
-2.650e-02,1.03516
-2.646e-02,1.64238
-2.643e-02,1.64238
-2.640e-02,2.04629
-2.637e-02,2.04629
-2.634e-02,1.76719
-2.630e-02,1.76719
-2.627e-02,0.970312
-2.624e-02,0.970312
-2.621e-02,-0.14375
-2.618e-02,-0.14375
-2.614e-02,-1.47891
-2.611e-02,-1.47891
-2.608e-02,-2.05859
-2.605e-02,-2.05859
-2.602e-02,-1.7707
-2.598e-02,-1.7707
-2.595e-02,-1.17988
-2.592e-02,-1.17988
-2.589e-02,-0.944141
-2.586e-02,-0.944141
-2.582e-02,-1.44102
-2.579e-02,-1.44102
-2.576e-02,-2.2627
-2.573e-02,-2.2627
-2.570e-02,-2.47813
-2.566e-02,-2.47813
-2.563e-02,-1.76133
-2.560e-02,-1.76133
-2.557e-02,-0.720313
-2.554e-02,-0.720313
-2.550e-02,0.200781
-2.547e-02,0.200781
-2.544e-02,0.952734
-2.541e-02,0.952734
-2.538e-02,1.22246
-2.534e-02,1.22246
-2.531e-02,1.29082
-2.528e-02,1.29082
-2.525e-02,1.40645
-2.522e-02,1.40645
-2.518e-02,1.53828
-2.515e-02,1.53828
-2.512e-02,1.54395
-2.509e-02,1.54395
-2.506e-02,1.40078
-2.502e-02,1.40078
-2.499e-02,1.2541
-2.496e-02,1.2541
-2.493e-02,1.28027
-2.490e-02,1.28027
-2.486e-02,1.48145
-2.483e-02,1.48145
-2.480e-02,1.66016
-2.477e-02,1.66016
-2.474e-02,1.58496
-2.470e-02,1.58496
-2.467e-02,1.30898
-2.464e-02,1.30898
-2.461e-02,1.11543
-2.458e-02,1.11543
-2.454e-02,1.2498
-2.451e-02,1.2498
-2.448e-02,1.6248
-2.445e-02,1.6248
-2.442e-02,1.84121
-2.438e-02,1.84121
-2.435e-02,1.60918
-2.432e-02,1.60918
-2.429e-02,1.09414
-2.426e-02,1.09414
-2.422e-02,0.65625
-2.419e-02,0.65625
-2.416e-02,0.549414
-2.413e-02,0.549414
-2.410e-02,1.15918
-2.406e-02,1.15918
-2.403e-02,1.91992
-2.400e-02,1.91992
-2.397e-02,2.02031
-2.394e-02,2.02031
-2.390e-02,1.37754
-2.387e-02,1.37754
-2.384e-02,0.30332
-2.381e-02,0.30332
-2.378e-02,-1.13789
-2.374e-02,-1.13789
-2.371e-02,-2.09863
-2.368e-02,-2.09863
-2.365e-02,-1.94199
-2.362e-02,-1.94199
-2.358e-02,-1.24297
-2.355e-02,-1.24297
-2.352e-02,-0.687891
-2.349e-02,-0.687891
-2.346e-02,-0.614258
-2.342e-02,-0.614258
-2.339e-02,-1.52168
-2.336e-02,-1.52168
-2.333e-02,-2.46348
-2.330e-02,-2.46348
-2.326e-02,-2.42754
-2.323e-02,-2.42754
-2.320e-02,-1.43457
-2.317e-02,-1.43457
-2.314e-02,-0.317383
-2.310e-02,-0.317383
-2.307e-02,0.714062
-2.304e-02,0.714062
-2.301e-02,1.31914
-2.298e-02,1.31914
-2.294e-02,1.22383
-2.291e-02,1.22383
-2.288e-02,1.10801
-2.285e-02,1.10801
-2.282e-02,1.28672
-2.278e-02,1.28672
-2.275e-02,1.64414
-2.272e-02,1.64414
-2.269e-02,1.79883
-2.266e-02,1.79883
-2.262e-02,1.5291
-2.259e-02,1.5291
-2.256e-02,1.07578
-2.253e-02,1.07578
-2.250e-02,0.781445
-2.246e-02,0.781445
-2.243e-02,1.02148
-2.240e-02,1.02148
-2.237e-02,1.72207
-2.234e-02,1.72207
-2.230e-02,2.07129
-2.227e-02,2.07129
-2.224e-02,1.7
-2.221e-02,1.7
-2.218e-02,0.796484
-2.214e-02,0.796484
-2.211e-02,-0.495508
-2.208e-02,-0.495508
-2.205e-02,-1.78457
-2.202e-02,-1.78457
-2.198e-02,-2.09824
-2.195e-02,-2.09824
-2.192e-02,-1.57891
-2.189e-02,-1.57891
-2.186e-02,-0.944922
-2.182e-02,-0.944922
-2.179e-02,-0.693164
-2.176e-02,-0.693164
-2.173e-02,-1.2959
-2.170e-02,-1.2959
-2.166e-02,-2.30293
-2.163e-02,-2.30293
-2.160e-02,-2.54961
-2.157e-02,-2.54961
-2.154e-02,-1.74824
-2.150e-02,-1.74824
-2.147e-02,-0.614258
-2.144e-02,-0.614258
-2.141e-02,0.421289
-2.138e-02,0.421289
-2.134e-02,1.2252
-2.131e-02,1.2252
-2.128e-02,1.27363
-2.125e-02,1.27363
-2.122e-02,1.13594
-2.118e-02,1.13594
-2.115e-02,1.22676
-2.112e-02,1.22676
-2.109e-02,1.55098
-2.106e-02,1.55098
-2.102e-02,1.78223
-2.099e-02,1.78223
-2.096e-02,1.62891
-2.093e-02,1.62891
-2.090e-02,1.20566
-2.086e-02,1.20566
-2.083e-02,0.8875
-2.080e-02,0.8875
-2.077e-02,1.06055
-2.074e-02,1.06055
-2.070e-02,1.66855
-2.067e-02,1.66855
-2.064e-02,2.04062
-2.061e-02,2.04062
-2.058e-02,1.73555
-2.054e-02,1.73555
-2.051e-02,0.92168
-2.048e-02,0.92168
-2.045e-02,-0.212695
-2.042e-02,-0.212695
-2.038e-02,-1.52578
-2.035e-02,-1.52578
-2.032e-02,-2.06094
-2.029e-02,-2.06094
-2.026e-02,-1.74336
-2.022e-02,-1.74336
-2.019e-02,-1.15625
-2.016e-02,-1.15625
-2.013e-02,-0.961914
-2.010e-02,-0.961914
-2.006e-02,-1.48066
-2.003e-02,-1.48066
-2.000e-02,-2.28887
-1.997e-02,-2.28887
-1.994e-02,-2.4666
-1.990e-02,-2.4666
-1.987e-02,-1.7207
-1.984e-02,-1.7207
-1.981e-02,-0.689063
-1.978e-02,-0.689063
-1.974e-02,0.224609
-1.971e-02,0.224609
-1.968e-02,0.970312
-1.965e-02,0.970312
-1.962e-02,1.22363
-1.958e-02,1.22363
-1.955e-02,1.29629
-1.952e-02,1.29629
-1.949e-02,1.42441
-1.946e-02,1.42441
-1.942e-02,1.54023
-1.939e-02,1.54023
-1.936e-02,1.53437
-1.933e-02,1.53437
-1.930e-02,1.37793
-1.926e-02,1.37793
-1.923e-02,1.25078
-1.920e-02,1.25078
-1.917e-02,1.29805
-1.914e-02,1.29805
-1.910e-02,1.50117
-1.907e-02,1.50117
-1.904e-02,1.65703
-1.901e-02,1.65703
-1.898e-02,1.56934
-1.894e-02,1.56934
-1.891e-02,1.28398
-1.888e-02,1.28398
-1.885e-02,1.12402
-1.882e-02,1.12402
-1.878e-02,1.2877
-1.875e-02,1.2877
-1.872e-02,1.66016
-1.869e-02,1.66016
-1.866e-02,1.83223
-1.862e-02,1.83223
-1.859e-02,1.55996
-1.856e-02,1.55996
-1.853e-02,1.04941
-1.850e-02,1.04941
-1.846e-02,0.647461
-1.843e-02,0.647461
-1.840e-02,0.644141
-1.837e-02,0.644141
-1.834e-02,1.34961
-1.830e-02,1.34961
-1.827e-02,2.01465
-1.824e-02,2.01465
-1.821e-02,1.94922
-1.818e-02,1.94922
-1.814e-02,1.20469
-1.811e-02,1.20469
-1.808e-02,0.0451172
-1.805e-02,0.0451172
-1.802e-02,-1.42578
-1.798e-02,-1.42578
-1.795e-02,-2.15762
-1.792e-02,-2.15762
-1.789e-02,-1.82461
-1.786e-02,-1.82461
-1.782e-02,-1.09395
-1.779e-02,-1.09395
-1.776e-02,-0.598438
-1.773e-02,-0.598438
-1.770e-02,-0.666992
-1.766e-02,-0.666992
-1.763e-02,-1.69941
-1.760e-02,-1.69941
-1.757e-02,-2.52891
-1.754e-02,-2.52891
-1.750e-02,-2.30664
-1.747e-02,-2.30664
-1.744e-02,-1.23887
-1.741e-02,-1.23887
-1.738e-02,-0.162695
-1.734e-02,-0.162695
-1.731e-02,0.861328
-1.728e-02,0.861328
-1.725e-02,1.32363
-1.722e-02,1.32363
-1.718e-02,1.19141
-1.715e-02,1.19141
-1.712e-02,1.12227
-1.709e-02,1.12227
-1.706e-02,1.34395
-1.702e-02,1.34395
-1.699e-02,1.69062
-1.696e-02,1.69062
-1.693e-02,1.77969
-1.690e-02,1.77969
-1.686e-02,1.45723
-1.683e-02,1.45723
-1.680e-02,1.00762
-1.677e-02,1.00762
-1.674e-02,0.807422
-1.670e-02,0.807422
-1.667e-02,1.19863
-1.664e-02,1.19863
-1.661e-02,1.86211
-1.658e-02,1.86211
-1.654e-02,2.04512
-1.651e-02,2.04512
-1.648e-02,1.51719
-1.645e-02,1.51719
-1.642e-02,0.563086
-1.638e-02,0.563086
-1.635e-02,-0.757422
-1.632e-02,-0.757422
-1.629e-02,-1.92344
-1.626e-02,-1.92344
-1.622e-02,-2.02715
-1.619e-02,-2.02715
-1.616e-02,-1.45664
-1.613e-02,-1.45664
-1.610e-02,-0.903125
-1.606e-02,-0.903125
-1.603e-02,-0.84082
-1.600e-02,-0.84082
-1.597e-02,-1.64688
-1.594e-02,-1.64688
-1.590e-02,-2.49121
-1.587e-02,-2.49121
-1.584e-02,-2.40527
-1.581e-02,-2.40527
-1.578e-02,-1.40703
-1.574e-02,-1.40703
-1.571e-02,-0.322656
-1.568e-02,-0.322656
-1.565e-02,0.677148
-1.562e-02,0.677148
-1.558e-02,1.29473
-1.555e-02,1.29473
-1.552e-02,1.24082
-1.549e-02,1.24082
-1.546e-02,1.15703
-1.542e-02,1.15703
-1.539e-02,1.31621
-1.536e-02,1.31621
-1.533e-02,1.61973
-1.530e-02,1.61973
-1.526e-02,1.73711
-1.523e-02,1.73711
-1.520e-02,1.49844
-1.517e-02,1.49844
-1.514e-02,1.12227
-1.510e-02,1.12227
-1.507e-02,1.02598
-1.504e-02,1.02598
-1.501e-02,1.37441
-1.498e-02,1.37441
-1.494e-02,1.85703
-1.491e-02,1.85703
-1.488e-02,1.92383
-1.485e-02,1.92383
-1.482e-02,1.40703
-1.478e-02,1.40703
-1.475e-02,0.610937
-1.472e-02,0.610937
-1.469e-02,-0.361719
-1.466e-02,-0.361719
-1.462e-02,-1.38848
-1.459e-02,-1.38848
-1.456e-02,-1.89727
-1.453e-02,-1.89727
-1.450e-02,-1.80859
-1.446e-02,-1.80859
-1.443e-02,-1.43867
-1.440e-02,-1.43867
-1.437e-02,-1.22031
-1.434e-02,-1.22031
-1.430e-02,-1.47363
-1.427e-02,-1.47363
-1.424e-02,-1.9877
-1.421e-02,-1.9877
-1.418e-02,-2.21172
-1.414e-02,-2.21172
-1.411e-02,-1.82109
-1.408e-02,-1.82109
-1.405e-02,-1.16816
-1.402e-02,-1.16816
-1.398e-02,-0.832227
-1.395e-02,-0.832227
-1.392e-02,-1.24043
-1.389e-02,-1.24043
-1.386e-02,-2.17324
-1.382e-02,-2.17324
-1.379e-02,-2.56934
-1.376e-02,-2.56934
-1.373e-02,-1.93535
-1.370e-02,-1.93535
-1.366e-02,-0.81582
-1.363e-02,-0.81582
-1.360e-02,0.188281
-1.357e-02,0.188281
-1.354e-02,1.08164
-1.350e-02,1.08164
-1.347e-02,1.29277
-1.344e-02,1.29277
-1.341e-02,1.18945
-1.338e-02,1.18945
-1.334e-02,1.2375
-1.331e-02,1.2375
-1.328e-02,1.48574
-1.325e-02,1.48574
-1.322e-02,1.6916
-1.318e-02,1.6916
-1.315e-02,1.61113
-1.312e-02,1.61113
-1.309e-02,1.28594
-1.306e-02,1.28594
-1.302e-02,1.05801
-1.299e-02,1.05801
-1.296e-02,1.21406
-1.293e-02,1.21406
-1.290e-02,1.65156
-1.286e-02,1.65156
-1.283e-02,1.90566
-1.280e-02,1.90566
-1.277e-02,1.64746
-1.274e-02,1.64746
-1.270e-02,1.05312
-1.267e-02,1.05312
-1.264e-02,0.351758
-1.261e-02,0.351758
-1.258e-02,-0.25957
-1.254e-02,-0.25957
-1.251e-02,-0.860938
-1.248e-02,-0.860938
-1.245e-02,-1.53809
-1.242e-02,-1.53809
-1.238e-02,-1.97969
-1.235e-02,-1.97969
-1.232e-02,-1.98086
-1.229e-02,-1.98086
-1.226e-02,-1.56035
-1.222e-02,-1.56035
-1.219e-02,-1.16328
-1.216e-02,-1.16328
-1.213e-02,-1.25957
-1.210e-02,-1.25957
-1.206e-02,-1.84355
-1.203e-02,-1.84355
-1.200e-02,-2.32559
-1.197e-02,-2.32559
-1.194e-02,-2.1168
-1.190e-02,-2.1168
-1.187e-02,-1.32773
-1.184e-02,-1.32773
-1.181e-02,-0.5875
-1.178e-02,-0.5875
-1.174e-02,-0.133398
-1.171e-02,-0.133398
-1.168e-02,-0.422266
-1.165e-02,-0.422266
-1.162e-02,-1.56328
-1.158e-02,-1.56328
-1.155e-02,-2.40352
-1.152e-02,-2.40352
-1.149e-02,-2.19609
-1.146e-02,-2.19609
-1.142e-02,-1.25449
-1.139e-02,-1.25449
-1.136e-02,-0.310352
-1.133e-02,-0.310352
-1.130e-02,0.495898
-1.126e-02,0.495898
-1.123e-02,1.04727
-1.120e-02,1.04727
-1.117e-02,1.23555
-1.114e-02,1.23555
-1.110e-02,1.40469
-1.107e-02,1.40469
-1.104e-02,1.57148
-1.101e-02,1.57148
-1.098e-02,1.55957
-1.094e-02,1.55957
-1.091e-02,1.39082
-1.088e-02,1.39082
-1.085e-02,1.21758
-1.082e-02,1.21758
-1.078e-02,1.25957
-1.075e-02,1.25957
-1.072e-02,1.49473
-1.069e-02,1.49473
-1.066e-02,1.70273
-1.062e-02,1.70273
-1.059e-02,1.61094
-1.056e-02,1.61094
-1.053e-02,1.28047
-1.050e-02,1.28047
-1.046e-02,1.05195
-1.043e-02,1.05195
-1.040e-02,1.22578
-1.037e-02,1.22578
-1.034e-02,1.66816
-1.030e-02,1.66816
-1.027e-02,1.91035
-1.024e-02,1.91035
-1.021e-02,1.62988
-1.018e-02,1.62988
-1.014e-02,1.01504
-1.011e-02,1.01504
-1.008e-02,0.306836
-1.005e-02,0.306836
-1.002e-02,-0.312305
-9.984e-03,-0.312305
-9.952e-03,-0.979297
-9.920e-03,-0.979297
-9.888e-03,-1.6334
-9.856e-03,-1.6334
-9.824e-03,-1.98828
-9.792e-03,-1.98828
-9.760e-03,-1.91133
-9.728e-03,-1.91133
-9.696e-03,-1.48672
-9.664e-03,-1.48672
-9.632e-03,-1.1707
-9.600e-03,-1.1707
-9.568e-03,-1.35801
-9.536e-03,-1.35801
-9.504e-03,-1.94453
-9.472e-03,-1.94453
-9.440e-03,-2.3082
-9.408e-03,-2.3082
-9.376e-03,-1.97266
-9.344e-03,-1.97266
-9.312e-03,-1.20254
-9.280e-03,-1.20254
-9.248e-03,-0.593164
-9.216e-03,-0.593164
-9.184e-03,-0.392773
-9.152e-03,-0.392773
-9.120e-03,-1.19824
-9.088e-03,-1.19824
-9.056e-03,-2.30977
-9.024e-03,-2.30977
-8.992e-03,-2.50469
-8.960e-03,-2.50469
-8.928e-03,-1.65664
-8.896e-03,-1.65664
-8.864e-03,-0.551172
-8.832e-03,-0.551172
-8.800e-03,0.444922
-8.768e-03,0.444922
-8.736e-03,1.22949
-8.704e-03,1.22949
-8.672e-03,1.27012
-8.640e-03,1.27012
-8.608e-03,1.16387
-8.576e-03,1.16387
-8.544e-03,1.25957
-8.512e-03,1.25957
-8.480e-03,1.55
-8.448e-03,1.55
-8.416e-03,1.73574
-8.384e-03,1.73574
-8.352e-03,1.57461
-8.320e-03,1.57461
-8.288e-03,1.19727
-8.256e-03,1.19727
-8.224e-03,1.00508
-8.192e-03,1.00508
-8.160e-03,1.26855
-8.128e-03,1.26855
-8.096e-03,1.76758
-8.064e-03,1.76758
-8.032e-03,1.95117
-8.000e-03,1.95117
-7.968e-03,1.54297
-7.936e-03,1.54297
-7.904e-03,0.808594
-7.872e-03,0.808594
-7.840e-03,-0.0982422
-7.808e-03,-0.0982422
-7.776e-03,-1.13926
-7.744e-03,-1.13926
-7.712e-03,-1.8248
-7.680e-03,-1.8248
-7.648e-03,-1.87715
-7.616e-03,-1.87715
-7.584e-03,-1.55586
-7.552e-03,-1.55586
-7.520e-03,-1.26445
-7.488e-03,-1.26445
-7.456e-03,-1.36426
-7.424e-03,-1.36426
-7.392e-03,-1.83809
-7.360e-03,-1.83809
-7.328e-03,-2.1875
-7.296e-03,-2.1875
-7.264e-03,-1.9752
-7.232e-03,-1.9752
-7.200e-03,-1.35664
-7.168e-03,-1.35664
-7.136e-03,-0.910547
-7.104e-03,-0.910547
-7.072e-03,-1.10625
-7.040e-03,-1.10625
-7.008e-03,-1.9834
-6.976e-03,-1.9834
-6.944e-03,-2.55332
-6.912e-03,-2.55332
-6.880e-03,-2.14688
-6.848e-03,-2.14688
-6.816e-03,-1.07656
-6.784e-03,-1.07656
-6.752e-03,-0.100977
-6.720e-03,-0.100977
-6.688e-03,0.853711
-6.656e-03,0.853711
-6.624e-03,1.26934
-6.592e-03,1.26934
-6.560e-03,1.24258
-6.528e-03,1.24258
-6.496e-03,1.25547
-6.464e-03,1.25547
-6.432e-03,1.43945
-6.400e-03,1.43945
-6.368e-03,1.62656
-6.336e-03,1.62656
-6.304e-03,1.60742
-6.272e-03,1.60742
-6.240e-03,1.35488
-6.208e-03,1.35488
-6.176e-03,1.13789
-6.144e-03,1.13789
-6.112e-03,1.21953
-6.080e-03,1.21953
-6.048e-03,1.55156
-6.016e-03,1.55156
-5.984e-03,1.80234
-5.952e-03,1.80234
-5.920e-03,1.65898
-5.888e-03,1.65898
-5.856e-03,1.20293
-5.824e-03,1.20293
-5.792e-03,0.822461
-5.760e-03,0.822461
-5.728e-03,0.852148
-5.696e-03,0.852148
-5.664e-03,1.50254
-5.632e-03,1.50254
-5.600e-03,2.04687
-5.568e-03,2.04687
-5.536e-03,1.90469
-5.504e-03,1.90469
-5.472e-03,1.1293
-5.440e-03,1.1293
-5.408e-03,-0.0166016
-5.376e-03,-0.0166016
-5.344e-03,-1.45898
-5.312e-03,-1.45898
-5.280e-03,-2.12832
-5.248e-03,-2.12832
-5.216e-03,-1.79316
-5.184e-03,-1.79316
-5.152e-03,-1.10703
-5.120e-03,-1.10703
-5.088e-03,-0.691797
-5.056e-03,-0.691797
-5.024e-03,-0.949023
-4.992e-03,-0.949023
-4.960e-03,-1.99395
-4.928e-03,-1.99395
-4.896e-03,-2.59375
-4.864e-03,-2.59375
-4.832e-03,-2.11895
-4.800e-03,-2.11895
-4.768e-03,-0.967383
-4.736e-03,-0.967383
-4.704e-03,0.0574219
-4.672e-03,0.0574219
-4.640e-03,1.04199
-4.608e-03,1.04199
-4.576e-03,1.32012
-4.544e-03,1.32012
-4.512e-03,1.16641
-4.480e-03,1.16641
-4.448e-03,1.15352
-4.416e-03,1.15352
-4.384e-03,1.4293
-4.352e-03,1.4293
-4.320e-03,1.73848
-4.288e-03,1.73848
-4.256e-03,1.74043
-4.224e-03,1.74043
-4.192e-03,1.35918
-4.160e-03,1.35918
-4.128e-03,0.945117
-4.096e-03,0.945117
-4.064e-03,0.868945
-4.032e-03,0.868945
-4.000e-03,1.38848
-3.968e-03,1.38848
-3.936e-03,1.97266
-3.904e-03,1.97266
-3.872e-03,1.97344
-3.840e-03,1.97344
-3.808e-03,1.3082
-3.776e-03,1.3082
-3.744e-03,0.250195
-3.712e-03,0.250195
-3.680e-03,-1.10996
-3.648e-03,-1.10996
-3.616e-03,-2.03203
-3.584e-03,-2.03203
-3.552e-03,-1.92852
-3.520e-03,-1.92852
-3.488e-03,-1.31426
-3.456e-03,-1.31426
-3.424e-03,-0.864844
-3.392e-03,-0.864844
-3.360e-03,-1.04844
-3.328e-03,-1.04844
-3.296e-03,-1.95664
-3.264e-03,-1.95664
-3.232e-03,-2.56191
-3.200e-03,-2.56191
-3.168e-03,-2.16602
-3.136e-03,-2.16602
-3.104e-03,-1.08613
-3.072e-03,-1.08613
-3.040e-03,-0.0929688
-3.008e-03,-0.0929688
-2.976e-03,0.876562
-2.944e-03,0.876562
-2.912e-03,1.28887
-2.880e-03,1.28887
-2.848e-03,1.22207
-2.816e-03,1.22207
-2.784e-03,1.21172
-2.752e-03,1.21172
-2.720e-03,1.41309
-2.688e-03,1.41309
-2.656e-03,1.64961
-2.624e-03,1.64961
-2.592e-03,1.6502
-2.560e-03,1.6502
-2.528e-03,1.37637
-2.496e-03,1.37637
-2.464e-03,1.1043
-2.432e-03,1.1043
-2.400e-03,1.15586
-2.368e-03,1.15586
-2.336e-03,1.53105
-2.304e-03,1.53105
-2.272e-03,1.85742
-2.240e-03,1.85742
-2.208e-03,1.73437
-2.176e-03,1.73437
-2.144e-03,1.21797
-2.112e-03,1.21797
-2.080e-03,0.613672
-2.048e-03,0.613672
-2.016e-03,0.0818359
-1.984e-03,0.0818359
-1.952e-03,-0.0794922
-1.920e-03,-0.0794922
-1.888e-03,-0.0265625
-1.856e-03,-0.0265625
-1.824e-03,0.0533203
-1.792e-03,0.0533203
-1.760e-03,0.0697266
-1.728e-03,0.0697266
-1.696e-03,-0.0556641
-1.664e-03,-0.0556641
-1.632e-03,-0.276758
-1.600e-03,-0.276758
-1.568e-03,-0.928906
-1.536e-03,-0.928906
-1.504e-03,-1.7748
-1.472e-03,-1.7748
-1.440e-03,-2.17422
-1.408e-03,-2.17422
-1.376e-03,-1.92695
-1.344e-03,-1.92695
-1.312e-03,-1.28301
-1.280e-03,-1.28301
-1.248e-03,-0.8625
-1.216e-03,-0.8625
-1.184e-03,-1.08926
-1.152e-03,-1.08926
-1.120e-03,-2.00566
-1.088e-03,-2.00566
-1.056e-03,-2.57246
-1.024e-03,-2.57246
-9.920e-04,-2.12715
-9.600e-04,-2.12715
-9.280e-04,-1.01992
-8.960e-04,-1.01992
-8.640e-04,-0.0390625
-8.320e-04,-0.0390625
-8.000e-04,0.936133
-7.680e-04,0.936133
-7.360e-04,1.30391
-7.040e-04,1.30391
-6.720e-04,1.20957
-6.400e-04,1.20957
-6.080e-04,1.20957
-5.760e-04,1.20957
-5.440e-04,1.41934
-5.120e-04,1.41934
-4.800e-04,1.66445
-4.480e-04,1.66445
-4.160e-04,1.65605
-3.840e-04,1.65605
-3.520e-04,1.36426
-3.200e-04,1.36426
-2.880e-04,1.08516
-2.560e-04,1.08516
-2.240e-04,1.14746
-1.920e-04,1.14746
-1.600e-04,1.54707
-1.280e-04,1.54707
-9.600e-05,1.89238
-6.400e-05,1.89238
-3.200e-05,1.74316
4.880e-16,1.74316
3.200e-05,1.17773
6.400e-05,1.17773
9.600e-05,0.499023
1.280e-04,0.499023
1.600e-04,-0.113281
1.920e-04,-0.113281
2.240e-04,-0.620117
2.560e-04,-0.620117
2.880e-04,-1.3
3.200e-04,-1.3
3.520e-04,-1.8709
3.840e-04,-1.8709
4.160e-04,-2.08848
4.480e-04,-2.08848
4.800e-04,-1.78848
5.120e-04,-1.78848
5.440e-04,-1.25879
5.760e-04,-1.25879
6.080e-04,-1.09766
6.400e-04,-1.09766
6.720e-04,-1.56855
7.040e-04,-1.56855
7.360e-04,-2.23789
7.680e-04,-2.23789
8.000e-04,-2.35527
8.320e-04,-2.35527
8.640e-04,-1.66953
8.960e-04,-1.66953
9.280e-04,-0.780469
9.600e-04,-0.780469
9.920e-04,-0.0957031
1.024e-03,-0.0957031
1.056e-03,0.132031
1.088e-03,0.132031
1.120e-03,-0.323633
1.152e-03,-0.323633
1.184e-03,-1.39336
1.216e-03,-1.39336
1.248e-03,-2.18008
1.280e-03,-2.18008
1.312e-03,-2.0752
1.344e-03,-2.0752
1.376e-03,-1.36641
1.408e-03,-1.36641
1.440e-03,-0.724023
1.472e-03,-0.724023
1.504e-03,-0.455664
1.536e-03,-0.455664
1.568e-03,-1.12559
1.600e-03,-1.12559
1.632e-03,-2.25059
1.664e-03,-2.25059
1.696e-03,-2.55156
1.728e-03,-2.55156
1.760e-03,-1.78359
1.792e-03,-1.78359
1.824e-03,-0.650391
1.856e-03,-0.650391
1.888e-03,0.383789
1.920e-03,0.383789
1.952e-03,1.2125
1.984e-03,1.2125
2.016e-03,1.2793
2.048e-03,1.2793
2.080e-03,1.13496
2.112e-03,1.13496
2.144e-03,1.21934
2.176e-03,1.21934
2.208e-03,1.53184
2.240e-03,1.53184
2.272e-03,1.77129
2.304e-03,1.77129
2.336e-03,1.64453
2.368e-03,1.64453
2.400e-03,1.21328
2.432e-03,1.21328
2.464e-03,0.904492
2.496e-03,0.904492
2.528e-03,1.04238
2.560e-03,1.04238
2.592e-03,1.65508
2.624e-03,1.65508
2.656e-03,2.04492
2.688e-03,2.04492
2.720e-03,1.75762
2.752e-03,1.75762
2.784e-03,0.95293
2.816e-03,0.95293
2.848e-03,-0.158203
2.880e-03,-0.158203
2.912e-03,-1.4832
2.944e-03,-1.4832
2.976e-03,-2.04727
3.008e-03,-2.04727
3.040e-03,-1.7582
3.072e-03,-1.7582
3.104e-03,-1.1793
3.136e-03,-1.1793
3.168e-03,-0.956445
3.200e-03,-0.956445
3.232e-03,-1.45996
3.264e-03,-1.45996
3.296e-03,-2.26875
3.328e-03,-2.26875
3.360e-03,-2.47715
3.392e-03,-2.47715
3.424e-03,-1.74453
3.456e-03,-1.74453
3.488e-03,-0.710352
3.520e-03,-0.710352
3.552e-03,0.199805
3.584e-03,0.199805
3.616e-03,0.94707
3.648e-03,0.94707
3.680e-03,1.22305
3.712e-03,1.22305
3.744e-03,1.30059
3.776e-03,1.30059
3.808e-03,1.42852
3.840e-03,1.42852
3.872e-03,1.54395
3.904e-03,1.54395
3.936e-03,1.52656
3.968e-03,1.52656
4.000e-03,1.37852
4.032e-03,1.37852
4.064e-03,1.25059
4.096e-03,1.25059
4.128e-03,1.30117
4.160e-03,1.30117
4.192e-03,1.50605
4.224e-03,1.50605
4.256e-03,1.65508
4.288e-03,1.65508
4.320e-03,1.55879
4.352e-03,1.55879
4.384e-03,1.27031
4.416e-03,1.27031
4.448e-03,1.11094
4.480e-03,1.11094
4.512e-03,1.29043
4.544e-03,1.29043
4.576e-03,1.66738
4.608e-03,1.66738
4.640e-03,1.82363
4.672e-03,1.82363
4.704e-03,1.53711
4.736e-03,1.53711
4.768e-03,1.05234
4.800e-03,1.05234
4.832e-03,0.679297
4.864e-03,0.679297
4.896e-03,0.772656
4.928e-03,0.772656
4.960e-03,1.5125
4.992e-03,1.5125
5.024e-03,2.06406
5.056e-03,2.06406
5.088e-03,1.86602
5.120e-03,1.86602
5.152e-03,1.04727
5.184e-03,1.04727
5.216e-03,-0.17832
5.248e-03,-0.17832
5.280e-03,-1.63105
5.312e-03,-1.63105
5.344e-03,-2.16211
5.376e-03,-2.16211
5.408e-03,-1.70605
5.440e-03,-1.70605
5.472e-03,-0.988086
5.504e-03,-0.988086
5.536e-03,-0.538867
5.568e-03,-0.538867
5.600e-03,-0.756641
5.632e-03,-0.756641
5.664e-03,-1.85566
5.696e-03,-1.85566
5.728e-03,-2.5791
5.760e-03,-2.5791
5.792e-03,-2.19316
5.824e-03,-2.19316
5.856e-03,-1.07305
5.888e-03,-1.07305
5.920e-03,-0.0398438
5.952e-03,-0.0398438
5.984e-03,0.97207
6.016e-03,0.97207
6.048e-03,1.32109
6.080e-03,1.32109
6.112e-03,1.17051
6.144e-03,1.17051
6.176e-03,1.1375
6.208e-03,1.1375
6.240e-03,1.40156
6.272e-03,1.40156
6.304e-03,1.73047
6.336e-03,1.73047
6.368e-03,1.74766
6.400e-03,1.74766
6.432e-03,1.3875
6.464e-03,1.3875
6.496e-03,0.968555
6.528e-03,0.968555
6.560e-03,0.856641
6.592e-03,0.856641
6.624e-03,1.33887
6.656e-03,1.33887
6.688e-03,1.93926
6.720e-03,1.93926
6.752e-03,1.99453
6.784e-03,1.99453
6.816e-03,1.37051
6.848e-03,1.37051
6.880e-03,0.350781
6.912e-03,0.350781
6.944e-03,-0.987109
6.976e-03,-0.987109
7.008e-03,-1.98945
7.040e-03,-1.98945
7.072e-03,-1.95918
7.104e-03,-1.95918
7.136e-03,-1.36621
7.168e-03,-1.36621
7.200e-03,-0.892969
7.232e-03,-0.892969
7.264e-03,-1.02637
7.296e-03,-1.02637
7.328e-03,-1.89121
7.360e-03,-1.89121
7.392e-03,-2.54316
7.424e-03,-2.54316
7.456e-03,-2.2252
7.488e-03,-2.2252
7.520e-03,-1.16582
7.552e-03,-1.16582
7.584e-03,-0.149414
7.616e-03,-0.149414
7.648e-03,0.821484
7.680e-03,0.821484
7.712e-03,1.27891
7.744e-03,1.27891
7.776e-03,1.23652
7.808e-03,1.23652
7.840e-03,1.2209
7.872e-03,1.2209
7.904e-03,1.40469
7.936e-03,1.40469
7.968e-03,1.62266
8.000e-03,1.62266
8.032e-03,1.64023
8.064e-03,1.64023
8.096e-03,1.40391
8.128e-03,1.40391
8.160e-03,1.13418
8.192e-03,1.13418
8.224e-03,1.15977
8.256e-03,1.15977
8.288e-03,1.50605
8.320e-03,1.50605
8.352e-03,1.82461
8.384e-03,1.82461
8.416e-03,1.73633
8.448e-03,1.73633
8.480e-03,1.24746
8.512e-03,1.24746
8.544e-03,0.738281
8.576e-03,0.738281
8.608e-03,0.370898
8.640e-03,0.370898
8.672e-03,0.519531
8.704e-03,0.519531
8.736e-03,1.32852
8.768e-03,1.32852
8.800e-03,1.97598
8.832e-03,1.97598
8.864e-03,1.87676
8.896e-03,1.87676
8.928e-03,1.15645
8.960e-03,1.15645
8.992e-03,0.08125
9.024e-03,0.08125
9.056e-03,-1.27773
9.088e-03,-1.27773
9.120e-03,-2.05234
9.152e-03,-2.05234
9.184e-03,-1.86582
9.216e-03,-1.86582
9.248e-03,-1.2541
9.280e-03,-1.2541
9.312e-03,-0.901758
9.344e-03,-0.901758
9.376e-03,-1.23945
9.408e-03,-1.23945
9.440e-03,-2.1207
9.472e-03,-2.1207
9.504e-03,-2.54297
9.536e-03,-2.54297
9.568e-03,-1.99297
9.600e-03,-1.99297
9.632e-03,-0.912109
9.664e-03,-0.912109
9.696e-03,0.0347656
9.728e-03,0.0347656
9.760e-03,0.919141
9.792e-03,0.919141
9.824e-03,1.25664
9.856e-03,1.25664
9.888e-03,1.25059
9.920e-03,1.25059
9.952e-03,1.31094
9.984e-03,1.31094
1.002e-02,1.49023
1.005e-02,1.49023
1.008e-02,1.60195
1.011e-02,1.60195
1.014e-02,1.51973
1.018e-02,1.51973
1.021e-02,1.30254
1.024e-02,1.30254
1.027e-02,1.18027
1.030e-02,1.18027
1.034e-02,1.32031
1.037e-02,1.32031
1.040e-02,1.60996
1.043e-02,1.60996
1.046e-02,1.74238
1.050e-02,1.74238
1.053e-02,1.5123
1.056e-02,1.5123
1.059e-02,1.14141
1.062e-02,1.14141
1.066e-02,1.02617
1.069e-02,1.02617
1.072e-02,1.35781
1.075e-02,1.35781
1.078e-02,1.83711
1.082e-02,1.83711
1.085e-02,1.92812
1.088e-02,1.92812
1.091e-02,1.43516
1.094e-02,1.43516
1.098e-02,0.664648
1.101e-02,0.664648
1.104e-02,-0.281055
1.107e-02,-0.281055
1.110e-02,-1.29961
1.114e-02,-1.29961
1.117e-02,-1.86563
1.120e-02,-1.86563
1.123e-02,-1.84375
1.126e-02,-1.84375
1.130e-02,-1.50723
1.133e-02,-1.50723
1.136e-02,-1.24902
1.139e-02,-1.24902
1.142e-02,-1.40801
1.146e-02,-1.40801
1.149e-02,-1.89805
1.152e-02,-1.89805
1.155e-02,-2.17988
1.158e-02,-2.17988
1.162e-02,-1.89141
1.165e-02,-1.89141
1.168e-02,-1.26621
1.171e-02,-1.26621
1.174e-02,-0.894336
1.178e-02,-0.894336
1.181e-02,-1.21777
1.184e-02,-1.21777
1.187e-02,-2.11348
1.190e-02,-2.11348
1.194e-02,-2.5498
1.197e-02,-2.5498
1.200e-02,-2.00137
1.203e-02,-2.00137
1.206e-02,-0.92207
1.210e-02,-0.92207
1.213e-02,0.0308594
1.216e-02,0.0308594
1.219e-02,0.939648
1.222e-02,0.939648
1.226e-02,1.26406
1.229e-02,1.26406
1.232e-02,1.22871
1.235e-02,1.22871
1.238e-02,1.29414
1.242e-02,1.29414
1.245e-02,1.48027
1.248e-02,1.48027
1.251e-02,1.61914
1.254e-02,1.61914
1.258e-02,1.55547
1.261e-02,1.55547
1.264e-02,1.30762
1.267e-02,1.30762
1.270e-02,1.15254
1.274e-02,1.15254
1.277e-02,1.27949
1.280e-02,1.27949
1.283e-02,1.60352
1.286e-02,1.60352
1.290e-02,1.77812
1.293e-02,1.77812
1.296e-02,1.56289
1.299e-02,1.56289
1.302e-02,1.1418
1.306e-02,1.1418
1.309e-02,0.921289
1.312e-02,0.921289
1.315e-02,1.22129
1.318e-02,1.22129
1.322e-02,1.80801
1.325e-02,1.80801
1.328e-02,2.02344
1.331e-02,2.02344
1.334e-02,1.56914
1.338e-02,1.56914
1.341e-02,0.716797
1.344e-02,0.716797
1.347e-02,-0.447852
1.350e-02,-0.447852
1.354e-02,-1.63105
1.357e-02,-1.63105
1.360e-02,-2.02031
1.363e-02,-2.02031
1.366e-02,-1.67617
1.370e-02,-1.67617
1.373e-02,-1.16465
1.376e-02,-1.16465
1.379e-02,-1.11074
1.382e-02,-1.11074
1.386e-02,-1.68516
1.389e-02,-1.68516
1.392e-02,-2.33652
1.395e-02,-2.33652
1.398e-02,-2.32383
1.402e-02,-2.32383
1.405e-02,-1.51777
1.408e-02,-1.51777
1.411e-02,-0.604688
1.414e-02,-0.604688
1.418e-02,0.11543
1.421e-02,0.11543
1.424e-02,0.476562
1.427e-02,0.476562
1.430e-02,0.392773
1.434e-02,0.392773
1.437e-02,0.175781
1.440e-02,0.175781
1.443e-02,0.0382812
1.446e-02,0.0382812
1.450e-02,0.0216797
1.453e-02,0.0216797
1.456e-02,0.0902344
1.459e-02,0.0902344
1.462e-02,0.212891
1.466e-02,0.212891
1.469e-02,0.469922
1.472e-02,0.469922
1.475e-02,1.06113
1.478e-02,1.06113
1.482e-02,1.6752
1.485e-02,1.6752
1.488e-02,1.84102
1.491e-02,1.84102
1.494e-02,1.48594
1.498e-02,1.48594
1.501e-02,0.909375
1.504e-02,0.909375
1.507e-02,0.321094
1.510e-02,0.321094
1.514e-02,-0.053125
1.517e-02,-0.053125
1.520e-02,-0.0582031
1.523e-02,-0.0582031
1.526e-02,0.0167969
1.530e-02,0.0167969
1.533e-02,0.110352
1.536e-02,0.110352
1.539e-02,0.0830078
1.542e-02,0.0830078
1.546e-02,-0.0589844
1.549e-02,-0.0589844
1.552e-02,-0.238477
1.555e-02,-0.238477
1.558e-02,-0.776172
1.562e-02,-0.776172
1.565e-02,-1.64043
1.568e-02,-1.64043
1.571e-02,-2.16973
1.574e-02,-2.16973
1.578e-02,-2.04395
1.581e-02,-2.04395
1.584e-02,-1.41563
1.587e-02,-1.41563
1.590e-02,-0.88418
1.594e-02,-0.88418
1.597e-02,-0.877734
1.600e-02,-0.877734
1.603e-02,-1.73398
1.606e-02,-1.73398
1.610e-02,-2.52246
1.613e-02,-2.52246
1.616e-02,-2.35488
1.619e-02,-2.35488
1.622e-02,-1.32246
1.626e-02,-1.32246
1.629e-02,-0.242188
1.632e-02,-0.242188
1.635e-02,0.758203
1.638e-02,0.758203
1.642e-02,1.30293
1.645e-02,1.30293
1.648e-02,1.23105
1.651e-02,1.23105
1.654e-02,1.16543
1.658e-02,1.16543
1.661e-02,1.34355
1.664e-02,1.34355
1.667e-02,1.6375
1.670e-02,1.6375
1.674e-02,1.72695
1.677e-02,1.72695
1.680e-02,1.46934
1.683e-02,1.46934
1.686e-02,1.09316
1.690e-02,1.09316
1.693e-02,1.02578
1.696e-02,1.02578
1.699e-02,1.41348
1.702e-02,1.41348
1.706e-02,1.88145
1.709e-02,1.88145
1.712e-02,1.89687
1.715e-02,1.89687
1.718e-02,1.35449
1.722e-02,1.35449
1.725e-02,0.549414
1.728e-02,0.549414
1.731e-02,-0.441211
1.734e-02,-0.441211
1.738e-02,-1.46328
1.741e-02,-1.46328
1.744e-02,-1.91035
1.747e-02,-1.91035
1.750e-02,-1.78418
1.754e-02,-1.78418
1.757e-02,-1.40703
1.760e-02,-1.40703
1.763e-02,-1.23066
1.766e-02,-1.23066
1.770e-02,-1.52246
1.773e-02,-1.52246
1.776e-02,-2.02461
1.779e-02,-2.02461
1.782e-02,-2.19707
1.786e-02,-2.19707
1.789e-02,-1.76738
1.792e-02,-1.76738
1.795e-02,-1.1166
1.798e-02,-1.1166
1.802e-02,-0.828125
1.805e-02,-0.828125
1.808e-02,-1.30137
1.811e-02,-1.30137
1.814e-02,-2.24844
1.818e-02,-2.24844
1.821e-02,-2.55625
1.824e-02,-2.55625
1.827e-02,-1.84902
1.830e-02,-1.84902
1.834e-02,-0.730469
1.837e-02,-0.730469
1.840e-02,0.27207
1.843e-02,0.27207
1.846e-02,1.11992
1.850e-02,1.11992
1.853e-02,1.28848
1.856e-02,1.28848
1.859e-02,1.18613
1.862e-02,1.18613
1.866e-02,1.24648
1.869e-02,1.24648
1.872e-02,1.5002
1.875e-02,1.5002
1.878e-02,1.70098
1.882e-02,1.70098
1.885e-02,1.59863
1.888e-02,1.59863
1.891e-02,1.26582
1.894e-02,1.26582
1.898e-02,1.05137
1.901e-02,1.05137
1.904e-02,1.24277
1.907e-02,1.24277
1.910e-02,1.68145
1.914e-02,1.68145
1.917e-02,1.91035
1.920e-02,1.91035
1.923e-02,1.60859
1.926e-02,1.60859
1.930e-02,0.979687
1.933e-02,0.979687
1.936e-02,0.272656
1.939e-02,0.272656
1.942e-02,-0.354492
1.946e-02,-0.354492
1.949e-02,-1.05117
1.952e-02,-1.05117
1.955e-02,-1.69199
1.958e-02,-1.69199
1.962e-02,-1.99531
1.965e-02,-1.99531
1.968e-02,-1.86426
1.971e-02,-1.86426
1.974e-02,-1.43477
1.978e-02,-1.43477
1.981e-02,-1.17715
1.984e-02,-1.17715
1.987e-02,-1.43008
1.990e-02,-1.43008
1.994e-02,-2.00645
1.997e-02,-2.00645
2.000e-02,-2.29316
2.003e-02,-2.29316
2.006e-02,-1.88691
2.010e-02,-1.88691
2.013e-02,-1.13652
2.016e-02,-1.13652
2.019e-02,-0.608398
2.022e-02,-0.608398
2.026e-02,-0.602344
2.029e-02,-0.602344
2.032e-02,-1.60625
2.035e-02,-1.60625
2.038e-02,-2.51152
2.042e-02,-2.51152
2.045e-02,-2.36992
2.048e-02,-2.36992
2.051e-02,-1.32031
2.054e-02,-1.32031
2.058e-02,-0.225391
2.061e-02,-0.225391
2.064e-02,0.792578
2.067e-02,0.792578
2.070e-02,1.32383
2.074e-02,1.32383
2.077e-02,1.20508
2.080e-02,1.20508
2.083e-02,1.1207
2.086e-02,1.1207
2.090e-02,1.32852
2.093e-02,1.32852
2.096e-02,1.67246
2.099e-02,1.67246
2.102e-02,1.77656
2.106e-02,1.77656
2.109e-02,1.48047
2.112e-02,1.48047
2.115e-02,1.04727
2.118e-02,1.04727
2.122e-02,0.831641
2.125e-02,0.831641
2.128e-02,1.18242
2.131e-02,1.18242
2.134e-02,1.84082
2.138e-02,1.84082
2.141e-02,2.04922
2.144e-02,2.04922
2.147e-02,1.54297
2.150e-02,1.54297
2.154e-02,0.608203
2.157e-02,0.608203
2.160e-02,-0.687109
2.163e-02,-0.687109
2.166e-02,-1.8752
2.170e-02,-1.8752
2.173e-02,-2.04102
2.176e-02,-2.04102
2.179e-02,-1.51074
2.182e-02,-1.51074
2.186e-02,-0.961914
2.189e-02,-0.961914
2.192e-02,-0.910938
2.195e-02,-0.910938
2.198e-02,-1.67402
2.202e-02,-1.67402
2.205e-02,-2.46367
2.208e-02,-2.46367
2.211e-02,-2.3877
2.214e-02,-2.3877
2.218e-02,-1.41484
2.221e-02,-1.41484
2.224e-02,-0.357422
2.227e-02,-0.357422
2.230e-02,0.614648
2.234e-02,0.614648
2.237e-02,1.24902
2.240e-02,1.24902
2.243e-02,1.25293
2.246e-02,1.25293
2.250e-02,1.19941
2.253e-02,1.19941
2.256e-02,1.34707
2.259e-02,1.34707
2.262e-02,1.5918
2.266e-02,1.5918
2.269e-02,1.67637
2.272e-02,1.67637
2.275e-02,1.47383
2.278e-02,1.47383
2.282e-02,1.16816
2.285e-02,1.16816
2.288e-02,1.09648
2.291e-02,1.09648
2.294e-02,1.40273
2.298e-02,1.40273
2.301e-02,1.79902
2.304e-02,1.79902
2.307e-02,1.81543
2.310e-02,1.81543
2.314e-02,1.37246
2.317e-02,1.37246
2.320e-02,0.797461
2.323e-02,0.797461
2.326e-02,0.238281
2.330e-02,0.238281
2.333e-02,-0.0484375
2.336e-02,-0.0484375
2.339e-02,-0.0150391
2.342e-02,-0.0150391
2.346e-02,0.105859
2.349e-02,0.105859
2.352e-02,0.33125
2.355e-02,0.33125
2.358e-02,0.73125
2.362e-02,0.73125
2.365e-02,1.3752
2.368e-02,1.3752
2.371e-02,1.80215
2.374e-02,1.80215
2.378e-02,1.72715
2.381e-02,1.72715
2.384e-02,1.24375
2.387e-02,1.24375
2.390e-02,0.725391
2.394e-02,0.725391
2.397e-02,0.342969
2.400e-02,0.342969
2.403e-02,0.416602
2.406e-02,0.416602
2.410e-02,1.17266
2.413e-02,1.17266
2.416e-02,1.90371
2.419e-02,1.90371
2.422e-02,1.9293
2.426e-02,1.9293
2.429e-02,1.29102
2.432e-02,1.29102
2.435e-02,0.304492
2.438e-02,0.304492
2.442e-02,-0.975
2.445e-02,-0.975
2.448e-02,-1.9377
2.451e-02,-1.9377
2.454e-02,-1.94648
2.458e-02,-1.94648
2.461e-02,-1.41973
2.464e-02,-1.41973
2.467e-02,-1.01328
2.470e-02,-1.01328
2.474e-02,-1.22715
2.477e-02,-1.22715
2.480e-02,-1.99453
2.483e-02,-1.99453
2.486e-02,-2.48027
2.490e-02,-2.48027
2.493e-02,-2.0877
2.496e-02,-2.0877
2.499e-02,-1.10996
2.502e-02,-1.10996
2.506e-02,-0.204297
2.509e-02,-0.204297
2.512e-02,0.567578
2.515e-02,0.567578
2.518e-02,1.04297
2.522e-02,1.04297
2.525e-02,1.25625
2.528e-02,1.25625
2.531e-02,1.46426
2.534e-02,1.46426
2.538e-02,1.61348
2.541e-02,1.61348
2.544e-02,1.55078
2.547e-02,1.55078
2.550e-02,1.30723
2.554e-02,1.30723
2.557e-02,1.15488
2.560e-02,1.15488
2.563e-02,1.28242
2.566e-02,1.28242
2.570e-02,1.59863
2.573e-02,1.59863
2.576e-02,1.7668
2.579e-02,1.7668
2.582e-02,1.55078
2.586e-02,1.55078
2.589e-02,1.13867
2.592e-02,1.13867
2.595e-02,0.937695
2.598e-02,0.937695
2.602e-02,1.23379
2.605e-02,1.23379
2.608e-02,1.80918
2.611e-02,1.80918
2.614e-02,2.0082
2.618e-02,2.0082
2.621e-02,1.56406
2.624e-02,1.56406
2.627e-02,0.714453
2.630e-02,0.714453
2.634e-02,-0.428711
2.637e-02,-0.428711
2.640e-02,-1.60117
2.643e-02,-1.60117
2.646e-02,-2.0082
2.650e-02,-2.0082
2.653e-02,-1.68457
2.656e-02,-1.68457
2.659e-02,-1.1875
2.662e-02,-1.1875
2.666e-02,-1.11016
2.669e-02,-1.11016
2.672e-02,-1.6584
2.675e-02,-1.6584
2.678e-02,-2.3168
2.682e-02,-2.3168
2.685e-02,-2.31172
2.688e-02,-2.31172
2.691e-02,-1.54766
2.694e-02,-1.54766
2.698e-02,-0.660938
2.701e-02,-0.660938
2.704e-02,0.0240234
2.707e-02,0.0240234
2.710e-02,0.238477
2.714e-02,0.238477
2.717e-02,-0.151172
2.720e-02,-0.151172
2.723e-02,-1.12305
2.726e-02,-1.12305
2.730e-02,-2.0082
2.733e-02,-2.0082
2.736e-02,-2.11152
2.739e-02,-2.11152
2.742e-02,-1.58555
2.746e-02,-1.58555
2.749e-02,-0.991797
2.752e-02,-0.991797
2.755e-02,-0.875781
2.758e-02,-0.875781
2.762e-02,-1.58496
2.765e-02,-1.58496
2.768e-02,-2.42383
2.771e-02,-2.42383
2.774e-02,-2.43887
2.778e-02,-2.43887
2.781e-02,-1.53242
2.784e-02,-1.53242
2.787e-02,-0.451953
2.790e-02,-0.451953
2.794e-02,0.524414
2.797e-02,0.524414
2.800e-02,1.22988
2.803e-02,1.22988
2.806e-02,1.25625
2.810e-02,1.25625
2.813e-02,1.18984
2.816e-02,1.18984
2.819e-02,1.31738
2.822e-02,1.31738
2.826e-02,1.57617
2.829e-02,1.57617
2.832e-02,1.68828
2.835e-02,1.68828
2.838e-02,1.4998
2.842e-02,1.4998
2.845e-02,1.18867
2.848e-02,1.18867
2.851e-02,1.08652
2.854e-02,1.08652
2.858e-02,1.3709
2.861e-02,1.3709
2.864e-02,1.77734
2.867e-02,1.77734
2.870e-02,1.84629
2.874e-02,1.84629
2.877e-02,1.43398
2.880e-02,1.43398
2.883e-02,0.840234
2.886e-02,0.840234
2.890e-02,0.238672
2.893e-02,0.238672
2.896e-02,-0.09375
2.899e-02,-0.09375
2.902e-02,-0.110547
2.906e-02,-0.110547
2.909e-02,-0.0460938
2.912e-02,-0.0460938
2.915e-02,-0.0878906
2.918e-02,-0.0878906
2.922e-02,-0.308008
2.925e-02,-0.308008
2.928e-02,-1.08125
2.931e-02,-1.08125
2.934e-02,-1.96074
2.938e-02,-1.96074
2.941e-02,-2.2248
2.944e-02,-2.2248
2.947e-02,-1.78301
2.950e-02,-1.78301
2.954e-02,-1.07578
2.957e-02,-1.07578
2.960e-02,-0.657227
2.963e-02,-0.657227
2.966e-02,-0.943164
2.970e-02,-0.943164
2.973e-02,-1.99824
2.976e-02,-1.99824
2.979e-02,-2.59199
2.982e-02,-2.59199
2.986e-02,-2.10117
2.989e-02,-2.10117
2.992e-02,-0.95625
2.995e-02,-0.95625
2.998e-02,0.0779297
3.002e-02,0.0779297
3.005e-02,1.05742
3.008e-02,1.05742
3.011e-02,1.32109
3.014e-02,1.32109
3.018e-02,1.1498
3.021e-02,1.1498
3.024e-02,1.1457
3.027e-02,1.1457
3.030e-02,1.43066
3.034e-02,1.43066
3.037e-02,1.75215
3.040e-02,1.75215
3.043e-02,1.72734
3.046e-02,1.72734
3.050e-02,1.33516
3.053e-02,1.33516
3.056e-02,0.913477
3.059e-02,0.913477
3.062e-02,0.802734
3.066e-02,0.802734
3.069e-02,1.30469
3.072e-02,1.30469
3.075e-02,1.9457
3.078e-02,1.9457
3.082e-02,2.00937
3.085e-02,2.00937
3.088e-02,1.36113
3.091e-02,1.36113
3.094e-02,0.300391
3.098e-02,0.300391
3.101e-02,-1.09121
3.104e-02,-1.09121
3.107e-02,-2.05234
3.110e-02,-2.05234
3.114e-02,-1.95137
3.117e-02,-1.95137
3.120e-02,-1.29629
3.123e-02,-1.29629
3.126e-02,-0.776953
3.130e-02,-0.776953
3.133e-02,-0.831836
3.136e-02,-0.831836
3.139e-02,-1.76719
3.142e-02,-1.76719
3.146e-02,-2.5459
3.149e-02,-2.5459
3.152e-02,-2.31582
3.155e-02,-2.31582
3.158e-02,-1.25156
3.162e-02,-1.25156
3.165e-02,-0.175586
3.168e-02,-0.175586
3.171e-02,0.847461
3.174e-02,0.847461
3.178e-02,1.31699
3.181e-02,1.31699
3.184e-02,1.20469
3.187e-02,1.20469
3.190e-02,1.13105
3.194e-02,1.13105
3.197e-02,1.35156

